File: finetune/datasets/Experimental thermoelectric properties 2013/MRL.csv
doi,Electrical resistivity (Ωcm),Seebeck coefficient (μCV/K),ZT (thermoelectric figure of merit) ,formula,synthesis,form,temperature,Thermal conductivity (W/mK),Average atomic mass (g/mol),Scarcity (wt fraction/abundance),HHIP (Herfindahl?Hirschman Index for elemental production),HHIR (Herfindahl?Hirschman Index for elemental reserves),Unit cell volume (Å³),Average atomic volume (Å³),Atoms per unit cell,Electrical conductivity (Ω⁻¹ cm⁻¹),Power Factor (W/(K²m)),S² (μV/K)²,Electronic fraction of thermal conductivity (ϰₑ/ϰ)
10.1002/adfm.201000970,0.457,470,0.01,Ca5Al2Sb6,"solid state reaction, Ar",polycrystalline,300,1.54,75.76,3709000,6736,2896,770.68,29.642,26,2.188,4.83E-05,221000,0.00104
10.1002/adfm.201000970,0.033,193,0.03,Ca4.95Na0.05Al2Sb6,"solid state reaction, Ar",polycrystalline,300,1.49,75.7,3712000,6735,2896,770.68,29.642,26,30.1,0.000112,37200,0.015
10.1002/adfm.201000970,0.00506,143,0.12,Ca4.75Na0.25Al2Sb6,"solid state reaction, Ar",polycrystalline,300,1.45,75.43,3725000,6732,2896,770.68,29.642,26,198,0.000402,20400,0.1
10.1002/adfm.201000970,0.409,463,0.02,Ca5Al2Sb6,"solid state reaction, Ar",polycrystalline,400,1.23,75.76,3709000,6736,2896,770.68,29.642,26,2.445,5.24E-05,214000,0.00194
10.1002/adfm.201000970,0.022,220,0.09,Ca4.95Na0.05Al2Sb6,"solid state reaction, Ar",polycrystalline,400,1.2,75.7,3712000,6735,2896,770.68,29.642,26,44.6,0.000216,48400,0.036
10.1002/adfm.201000970,0.00544,161,0.19,Ca4.75Na0.25Al2Sb6,"solid state reaction, Ar",polycrystalline,400,1.16,75.43,3725000,6732,2896,770.68,29.642,26,184,0.000476,25900,0.155
10.1002/adfm.201000970,0.235,390,0.05,Ca5Al2Sb6,"solid state reaction, Ar",polycrystalline,700,0.764,75.76,3709000,6736,2896,770.68,29.642,26,4.257,6.48E-05,152000,0.00952
10.1002/adfm.201000970,0.018,262,0.26,Ca4.95Na0.05Al2Sb6,"solid state reaction, Ar",polycrystalline,700,0.833,75.7,3712000,6735,2896,770.68,29.642,26,55.2,0.000378,68500,0.113
10.1002/adfm.201000970,0.00733,201,0.39,Ca4.75Na0.25Al2Sb6,"solid state reaction, Ar",polycrystalline,700,0.82,75.43,3725000,6732,2896,770.68,29.642,26,136,0.00055,40300,0.284
10.1002/adfm.201000970,0.00939,207,0.46,Ca4.75Na0.25Al2Sb6,"solid state reaction, Ar",polycrystalline,1000,0.703,75.43,3725000,6732,2896,770.68,29.642,26,106,0.000456,42800,0.37
10.1002/chin.199644003,0.165,-25,0.000114,K1Bi6.33S10,"solid state reaction, vacuum",polycrystalline,300,1.3,97.09,46250000,4345,5070,1204.18,33.449,36,6.061,3.79E-07,625,0.00341
10.1002/chin.200318015,2.919,-752,0.00582,Nd2Cu1O4,"solid state reaction, air",polycrystalline,300,29.6,59.43,21000,6889,2479,189.28,13.52,14,0.343,1.94E-05,566000,8.47E-06
10.1002/chin.200318015,0.059,-249,0.03,Nd2Cu0.98Ni0.02O4,"solid state reaction, air",polycrystalline,300,9.811,59.42,20980,6888,2480,189.28,13.52,14,16.8,0.000105,62200,0.00126
10.1002/chin.200318015,0.19,-343,0.02,Nd2Cu0.98Zn0.02O4,"solid state reaction, air",polycrystalline,300,17.1,59.44,21000,6888,2481,189.28,13.52,14,5.269,6.21E-05,118000,0.000226
10.1002/chin.200318015,2.162,-618,0.00708,Nd2Cu1O4,"solid state reaction, air",polycrystalline,400,13.7,59.43,21000,6889,2479,189.28,13.52,14,0.463,1.77E-05,382000,3.30E-05
10.1002/chin.200318015,0.038,-183,0.03,Nd2Cu0.98Ni0.02O4,"solid state reaction, air",polycrystalline,400,8.03,59.42,20980,6888,2480,189.28,13.52,14,26.1,8.72E-05,33400,0.00318
10.1002/chin.200318015,0.141,-294,0.02,Nd2Cu0.98Zn0.02O4,"solid state reaction, air",polycrystalline,400,11.1,59.44,21000,6888,2481,189.28,13.52,14,7.115,6.17E-05,86700,0.000626
10.1002/chin.200318015,0.024,-100,0.03,Nd2Cu1O4,"solid state reaction, air",polycrystalline,700,4.19,59.43,21000,6889,2479,189.28,13.52,14,41,4.08E-05,9940,0.017
10.1002/chin.200318015,0.022,-99,0.03,Nd2Cu0.98Ni0.02O4,"solid state reaction, air",polycrystalline,700,5.25,59.42,20980,6888,2480,189.28,13.52,14,46.3,4.49E-05,9700,0.015
10.1002/chin.200318015,0.076,-176,0.03,Nd2Cu0.98Zn0.02O4,"solid state reaction, air",polycrystalline,700,5.22,59.44,21000,6888,2481,189.28,13.52,14,13.1,4.04E-05,30800,0.00429
10.1002/chin.200318015,0.00158,26,0.04,Nd2Cu1O4,"solid state reaction, air",polycrystalline,1000,3.94,59.43,21000,6889,2479,189.28,13.52,14,631,4.35E-05,690,0.391
10.1002/chin.200318015,0.023,-83,0.03,Nd2Cu0.98Ni0.02O4,"solid state reaction, air",polycrystalline,1000,3.902,59.42,20980,6888,2480,189.28,13.52,14,43.6,2.98E-05,6830,0.027
10.1002/chin.200318015,0.037,-64,0.01,Nd2Cu0.98Zn0.02O4,"solid state reaction, air",polycrystalline,1000,3.63,59.44,21000,6888,2481,189.28,13.52,14,26.9,1.09E-05,4060,0.018
10.1006/jssc.1995.1384,0.00371,-83,0.06,Ca0.9Bi0.1Mn1O3,"solid state reaction, air",polycrystalline,300,3.591,31.98,7688000,2260,1887,213.57,10.678,20,270,0.000184,6830,0.055
10.1006/jssc.1995.1384,0.00729,-49,0.00995,Ca0.9Ce0.1Mn1O3,"solid state reaction, air",polycrystalline,300,,30.6,1819,2506,1440,215.14,10.757,20,137,3.32E-05,2420,
10.1006/jssc.1995.1384,0.018,-87,0.01,Ca0.9Y0.1Mn1O3,"solid state reaction, air",polycrystalline,300,,29.58,2323,2287,1352,215.14,10.757,20,56.3,4.23E-05,7510,
10.1006/jssc.1995.1384,0.00863,-102,0.04,Ca0.9Sm0.1Mn1O3,"solid state reaction, air",polycrystalline,300,,30.81,15330,2553,1451,210.39,10.519,20,116,0.000121,10400,
10.1006/jssc.1995.1384,0.462,-70,0.000317,Ca0.9Sb0.1Mn1O3,"solid state reaction, air",polycrystalline,300,,30.24,403100,2295,1442,210.39,10.519,20,2.164,1.06E-06,4890,
10.1006/jssc.1995.1384,0.00796,-93,0.03,Ca0.9La0.1Mn1O3,"solid state reaction, air",polycrystalline,300,,30.58,2861,2501,1438,212.03,10.602,20,126,0.000109,8650,
10.1006/jssc.1995.1384,0.045,-274,0.05,Ca0.9Pb0.1Mn1O3,"solid state reaction, air",polycrystalline,300,,31.95,11170,1922,1336,212.03,10.602,20,22.5,0.000169,75200,
10.1006/jssc.1995.1384,0.215,-348,0.02,Ca0.9In0.1Mn1O3,"solid state reaction, air",polycrystalline,300,,30.1,372600,1921,1325,212.03,10.602,20,4.651,5.65E-05,121000,
10.1006/jssc.1995.1384,2.198,-284,0.0011,Ca0.9Sn0.1Mn1O3,"solid state reaction, air",polycrystalline,300,,30.18,35350,1866,1298,212.03,10.602,20,0.455,3.67E-06,80600,
10.1006/jssc.1995.1384,6.975,-477,0.000977,Ca1Mn1O3,"solid state reaction, air",polycrystalline,300,2.99,28.6,398,1861,1276,206.97,10.348,20,0.143,3.26E-06,227000,3.51E-05
10.1006/jssc.1995.1384,0.004,-101,0.1,Ca0.9Bi0.1Mn1O3,"solid state reaction, air",polycrystalline,400,3.147,31.98,7688000,2260,1887,213.57,10.678,20,250,0.000254,10200,0.078
10.1006/jssc.1995.1384,0.00645,-55,0.02,Ca0.9Ce0.1Mn1O3,"solid state reaction, air",polycrystalline,400,,30.6,1819,2506,1440,215.14,10.757,20,155,4.76E-05,3070,
10.1006/jssc.1995.1384,0.015,-91,0.02,Ca0.9Y0.1Mn1O3,"solid state reaction, air",polycrystalline,400,,29.58,2323,2287,1352,215.14,10.757,20,66.1,5.50E-05,8320,
10.1006/jssc.1995.1384,0.00747,-106,0.06,Ca0.9Sm0.1Mn1O3,"solid state reaction, air",polycrystalline,400,,30.81,15330,2553,1451,210.39,10.519,20,134,0.00015,11200,
10.1006/jssc.1995.1384,0.115,-71,0.00175,Ca0.9Sb0.1Mn1O3,"solid state reaction, air",polycrystalline,400,,30.24,403100,2295,1442,210.39,10.519,20,8.674,4.36E-06,5030,
10.1006/jssc.1995.1384,0.00699,-98,0.06,Ca0.9La0.1Mn1O3,"solid state reaction, air",polycrystalline,400,,30.58,2861,2501,1438,212.03,10.602,20,143,0.000139,9680,
10.1006/jssc.1995.1384,0.052,-266,0.05,Ca0.9Pb0.1Mn1O3,"solid state reaction, air",polycrystalline,400,,31.95,11170,1922,1336,212.03,10.602,20,19.1,0.000135,70800,
10.1006/jssc.1995.1384,0.205,-357,0.02,Ca0.9In0.1Mn1O3,"solid state reaction, air",polycrystalline,400,,30.1,372600,1921,1325,212.03,10.602,20,4.887,6.21E-05,127000,
10.1006/jssc.1995.1384,2.302,-282,0.00138,Ca0.9Sn0.1Mn1O3,"solid state reaction, air",polycrystalline,400,,30.18,35350,1866,1298,212.03,10.602,20,0.434,3.45E-06,79400,
10.1006/jssc.1995.1384,2.87,-461,0.00296,Ca1Mn1O3,"solid state reaction, air",polycrystalline,400,3.178,28.6,398,1861,1276,206.97,10.348,20,0.348,7.41E-06,213000,0.000107
10.1006/jssc.1995.1384,0.005,-120,0.2,Ca0.9Bi0.1Mn1O3,"solid state reaction, air",polycrystalline,700,2.214,31.98,7688000,2260,1887,213.57,10.678,20,200,0.000287,14300,0.154
10.1006/jssc.1995.1384,0.00666,-60,0.04,Ca0.9Ce0.1Mn1O3,"solid state reaction, air",polycrystalline,700,,30.6,1819,2506,1440,215.14,10.757,20,150,5.40E-05,3600,
10.1006/jssc.1995.1384,0.016,-103,0.05,Ca0.9Y0.1Mn1O3,"solid state reaction, air",polycrystalline,700,,29.58,2323,2287,1352,215.14,10.757,20,63.1,6.64E-05,10500,
10.1006/jssc.1995.1384,0.00788,-147,0.19,Ca0.9Sm0.1Mn1O3,"solid state reaction, air",polycrystalline,700,,30.81,15330,2553,1451,210.39,10.519,20,127,0.000273,21500,
10.1006/jssc.1995.1384,0.067,-81,0.00686,Ca0.9Sb0.1Mn1O3,"solid state reaction, air",polycrystalline,700,,30.24,403100,2295,1442,210.39,10.519,20,14.9,9.80E-06,6570,
10.1006/jssc.1995.1384,0.00855,-117,0.11,Ca0.9La0.1Mn1O3,"solid state reaction, air",polycrystalline,700,,30.58,2861,2501,1438,212.03,10.602,20,117,0.00016,13700,
10.1006/jssc.1995.1384,0.061,-277,0.09,Ca0.9Pb0.1Mn1O3,"solid state reaction, air",polycrystalline,700,,31.95,11170,1922,1336,212.03,10.602,20,16.5,0.000127,76800,
10.1006/jssc.1995.1384,0.231,-411,0.05,Ca0.9In0.1Mn1O3,"solid state reaction, air",polycrystalline,700,,30.1,372600,1921,1325,212.03,10.602,20,4.333,7.32E-05,169000,
10.1006/jssc.1995.1384,2.082,-255,0.00219,Ca0.9Sn0.1Mn1O3,"solid state reaction, air",polycrystalline,700,,30.18,35350,1866,1298,212.03,10.602,20,0.48,3.13E-06,65100,
10.1006/jssc.1995.1384,0.485,-332,0.02,Ca1Mn1O3,"solid state reaction, air",polycrystalline,700,3.311,28.6,398,1861,1276,206.97,10.348,20,2.061,2.27E-05,110000,0.00106
10.1006/jssc.1995.1384,0.00519,-96,0.18,Ca0.9Bi0.1Mn1O3,"solid state reaction, air",polycrystalline,1000,1.841,31.98,7688000,2260,1887,213.57,10.678,20,193,0.000178,9220,0.255
10.1006/jssc.1995.1384,0.00789,-80,0.08,Ca0.9Ce0.1Mn1O3,"solid state reaction, air",polycrystalline,1000,,30.6,1819,2506,1440,215.14,10.757,20,127,8.21E-05,6480,
10.1006/jssc.1995.1384,0.018,-108,0.07,Ca0.9Y0.1Mn1O3,"solid state reaction, air",polycrystalline,1000,,29.58,2323,2287,1352,215.14,10.757,20,56.8,6.57E-05,11600,
10.1006/jssc.1995.1384,0.00783,-123,0.19,Ca0.9Sm0.1Mn1O3,"solid state reaction, air",polycrystalline,1000,,30.81,15330,2553,1451,210.39,10.519,20,128,0.000192,15100,
10.1006/jssc.1995.1384,0.064,-70,0.00765,Ca0.9Sb0.1Mn1O3,"solid state reaction, air",polycrystalline,1000,,30.24,403100,2295,1442,210.39,10.519,20,15.6,7.65E-06,4920,
10.1006/jssc.1995.1384,0.01,-88,0.08,Ca0.9La0.1Mn1O3,"solid state reaction, air",polycrystalline,1000,,30.58,2861,2501,1438,212.03,10.602,20,97.2,7.60E-05,7820,
10.1006/jssc.1995.1384,0.047,-115,0.03,Ca0.9Pb0.1Mn1O3,"solid state reaction, air",polycrystalline,1000,,31.95,11170,1922,1336,212.03,10.602,20,21.4,2.81E-05,13200,
10.1006/jssc.1995.1384,0.173,-235,0.03,Ca0.9In0.1Mn1O3,"solid state reaction, air",polycrystalline,1000,,30.1,372600,1921,1325,212.03,10.602,20,5.766,3.18E-05,55100,
10.1006/jssc.1995.1384,0.479,-145,0.00442,Ca0.9Sn0.1Mn1O3,"solid state reaction, air",polycrystalline,1000,,30.18,35350,1866,1298,212.03,10.602,20,2.089,4.42E-06,21200,
10.1006/jssc.1995.1384,0.087,-193,0.04,Ca1Mn1O3,"solid state reaction, air",polycrystalline,1000,3.445,28.6,398,1861,1276,206.97,10.348,20,11.4,4.25E-05,37200,0.0081
10.1007/978-3-540-88201-5_24,0.00962,-50,0.00771,Sr1Dy0.08Ti0.92O3,"solid state reaction, air",polycrystalline,300,4.195,38.53,13120,2920,2055,60.64,12.128,5,104,2.57E-05,2470,0.018
10.1007/978-3-540-88201-5_24,0.0026,-32,0.01,Sr1Nd0.17Ti0.83O3,"solid state reaction, air",polycrystalline,300,6.19,39.97,4528,3337,2128,60.64,12.128,5,385,4.07E-05,1060,0.046
10.1007/978-3-540-88201-5_24,0.00184,-34,0.02,Sr1Nd0.2Ti0.8O3,"solid state reaction, air",polycrystalline,300,5.53,40.55,5035,3484,2153,60.64,12.128,5,544,6.44E-05,1180,0.072
10.1007/978-3-540-88201-5_24,0.00225,-23,0.00682,Sr1Nd0.24Ti0.76O3,"solid state reaction, air",polycrystalline,300,5.98,41.32,5689,3673,2186,60.64,12.128,5,445,2.27E-05,511,0.054
10.1007/978-3-540-88201-5_24,0.004,-70,0.05,Sr1Dy0.08Ti0.92O3,"solid state reaction, air",polycrystalline,400,3.74,38.53,13120,2920,2055,60.64,12.128,5,250,0.000124,4970,0.065
10.1007/978-3-540-88201-5_24,0.00193,-42,0.04,Sr1Nd0.17Ti0.83O3,"solid state reaction, air",polycrystalline,400,5.35,39.97,4528,3337,2128,60.64,12.128,5,519,9.24E-05,1780,0.095
10.1007/978-3-540-88201-5_24,0.00147,-45,0.05,Sr1Nd0.2Ti0.8O3,"solid state reaction, air",polycrystalline,400,4.83,40.55,5035,3484,2153,60.64,12.128,5,678,0.000137,2020,0.137
10.1007/978-3-540-88201-5_24,0.00181,-32,0.02,Sr1Nd0.24Ti0.76O3,"solid state reaction, air",polycrystalline,400,5.29,41.32,5689,3673,2186,60.64,12.128,5,553,5.49E-05,992,0.102
10.1007/978-3-540-88201-5_24,0.00459,-147,0.33,Sr1Dy0.08Ti0.92O3,"solid state reaction, air",polycrystalline,700,3.17,38.53,13120,2920,2055,60.64,12.128,5,218,0.000471,21600,0.117
10.1007/978-3-540-88201-5_24,0.00227,-96,0.28,Sr1Nd0.17Ti0.83O3,"solid state reaction, air",polycrystalline,700,3.87,39.97,4528,3337,2128,60.64,12.128,5,441,0.000406,9220,0.194
10.1007/978-3-540-88201-5_24,0.00195,-94,0.32,Sr1Nd0.2Ti0.8O3,"solid state reaction, air",polycrystalline,700,3.45,40.55,5035,3484,2153,60.64,12.128,5,512,0.000456,8910,0.253
10.1007/978-3-540-88201-5_24,0.00186,-81,0.24,Sr1Nd0.24Ti0.76O3,"solid state reaction, air",polycrystalline,700,3.76,41.32,5689,3673,2186,60.64,12.128,5,537,0.00035,6510,0.244
10.1007/978-3-540-88201-5_24,0.00833,-192,0.44,Sr1Dy0.08Ti0.92O3,"solid state reaction, air",polycrystalline,1000,2.97,38.53,13120,2920,2055,60.64,12.128,5,120,0.000441,36700,0.099
10.1007/978-3-540-88201-5_24,0.00418,-142,0.48,Sr1Nd0.17Ti0.83O3,"solid state reaction, air",polycrystalline,1000,3.397,39.97,4528,3337,2128,60.64,12.128,5,239,0.000481,20100,0.172
10.1007/978-3-540-88201-5_24,0.00395,-140,0.5,Sr1Nd0.2Ti0.8O3,"solid state reaction, air",polycrystalline,1000,3.197,40.55,5035,3484,2153,60.64,12.128,5,253,0.000496,19600,0.193
10.1007/978-3-540-88201-5_24,0.00319,-124,0.48,Sr1Nd0.24Ti0.76O3,"solid state reaction, air",polycrystalline,1000,3.22,41.32,5689,3673,2186,60.64,12.128,5,313,0.000481,15400,0.237
10.1007/s10854-011-0574-8,1400,98,2.05E-07,W1O3,Solid state reaction,polycrystalline,300,,57.96,674900,5639,3511,422.94,13.217,32,0.000713,6.83E-10,9590,
10.1007/s10854-011-0574-8,1250,93,2.06E-07,W0.99O2.97Co0.02O0.03,Solid state reaction,polycrystalline,300,,57.65,670200,5615,3500,422.94,13.217,32,0.000802,6.88E-10,8570,
10.1007/s10854-011-0574-8,114,103,2.79E-06,W0.95O2.95Co0.1O0.15,Solid state reaction,polycrystalline,300,,55.45,646800,5484,3437,422.94,13.217,32,0.00873,9.31E-09,10700,
10.1007/s10854-011-0574-8,561,104,5.77E-07,W0.9O2.7Co0.2O0.3,Solid state reaction,polycrystalline,300,,54.94,627100,5394,3402,422.94,13.217,32,0.00178,1.92E-09,10800,
10.1007/s10854-011-0574-8,810,108,5.72E-07,W1O3,Solid state reaction,polycrystalline,400,,57.96,674900,5639,3511,422.94,13.217,32,0.00123,1.43E-09,11600,
10.1007/s10854-011-0574-8,708,97,5.32E-07,W0.99O2.97Co0.02O0.03,Solid state reaction,polycrystalline,400,,57.65,670200,5615,3500,422.94,13.217,32,0.00141,1.33E-09,9420,
10.1007/s10854-011-0574-8,99.4,106,4.52E-06,W0.95O2.95Co0.1O0.15,Solid state reaction,polycrystalline,400,,55.45,646800,5484,3437,422.94,13.217,32,0.01,1.13E-08,11200,
10.1007/s10854-011-0574-8,176,106,2.54E-06,W0.9O2.7Co0.2O0.3,Solid state reaction,polycrystalline,400,,54.94,627100,5394,3402,422.94,13.217,32,0.00569,6.34E-09,11100,
10.1007/s10854-011-0574-8,108,125,1.01E-05,W1O3,Solid state reaction,polycrystalline,700,,57.96,674900,5639,3511,422.94,13.217,32,0.00922,1.44E-08,15600,
10.1007/s10854-011-0574-8,86,114,1.05E-05,W0.99O2.97Co0.02O0.03,Solid state reaction,polycrystalline,700,,57.65,670200,5615,3500,422.94,13.217,32,0.012,1.50E-08,12900,
10.1007/s10854-011-0574-8,20.2,120,4.99E-05,W0.95O2.95Co0.1O0.15,Solid state reaction,polycrystalline,700,,55.45,646800,5484,3437,422.94,13.217,32,0.049,7.13E-08,14400,
10.1007/s10854-011-0574-8,52.1,122,1.99E-05,W0.9O2.7Co0.2O0.3,Solid state reaction,polycrystalline,700,,54.94,627100,5394,3402,422.94,13.217,32,0.019,2.84E-08,14800,
10.1007/s10854-011-0574-8,64.9,161,3.99E-05,W1O3,Solid state reaction,polycrystalline,1000,,57.96,674900,5639,3511,422.94,13.217,32,0.015,3.99E-08,25900,
10.1007/s10854-011-0574-8,36.4,114,3.56E-05,W0.99O2.97Co0.02O0.03,Solid state reaction,polycrystalline,1000,,57.65,670200,5615,3500,422.94,13.217,32,0.027,3.56E-08,13000,
10.1007/s10854-011-0574-8,15.9,126,9.93E-05,W0.95O2.95Co0.1O0.15,Solid state reaction,polycrystalline,1000,,55.45,646800,5484,3437,422.94,13.217,32,0.063,9.93E-08,15800,
10.1007/s10854-011-0574-8,35.7,124,4.32E-05,W0.9O2.7Co0.2O0.3,Solid state reaction,polycrystalline,1000,,54.94,627100,5394,3402,422.94,13.217,32,0.028,4.32E-08,15400,
10.1007/s11664-009-0735-1,0.00152,-83,0.14,Mg2Si0.98Bi0.02,"solid state reaction, He/H2",polycrystalline,300,7.13,26.77,3061000,5072,957.2,258.55,21.546,12,658,0.000452,6870,0.068
10.1007/s11664-009-0735-1,0.0015,-83,0.14,Mg2Si0.6Ge0.4Bi0.02,"solid state reaction, He/H2",polycrystalline,300,2.98,32.68,2694000,5169,1229,258.35,21.529,12,667,0.000459,6890,0.164
10.1007/s11664-009-0735-1,1.24,26,1.64E-05,Mg2Si0.98Ag0.02,"solid state reaction, He/H2",polycrystalline,300,7.83,26.1,353300,4954,699.7,258.55,21.546,12,0.806,5.45E-08,676,7.54E-05
10.1007/s11664-009-0735-1,0.051,30,0.000541,Mg2Si0.6Ge0.4Ag0.02,"solid state reaction, He/H2",polycrystalline,300,4.11,32.01,493400,5075,1026,258.35,21.529,12,19.5,1.80E-06,925,0.00347
10.1007/s11664-009-0735-1,0.00121,-110,0.4,Mg2Si0.98Bi0.02,"solid state reaction, He/H2",polycrystalline,400,5.63,26.77,3061000,5072,957.2,258.55,21.546,12,826,0.00101,12200,0.143
10.1007/s11664-009-0735-1,0.00127,-118,0.43,Mg2Si0.6Ge0.4Bi0.02,"solid state reaction, He/H2",polycrystalline,400,2.62,32.68,2694000,5169,1229,258.35,21.529,12,787,0.00109,13800,0.293
10.1007/s11664-009-0735-1,0.413,178,0.00307,Mg2Si0.98Ag0.02,"solid state reaction, He/H2",polycrystalline,400,6.06,26.1,353300,4954,699.7,258.55,21.546,12,2.421,7.67E-06,31700,0.00039
10.1007/s11664-009-0735-1,0.028,158,0.04,Mg2Si0.6Ge0.4Ag0.02,"solid state reaction, He/H2",polycrystalline,400,3.09,32.01,493400,5075,1026,258.35,21.529,12,35.2,8.78E-05,24900,0.011
10.1007/s11664-009-0735-1,0.00125,-175,1.72,Mg2Si0.98Bi0.02,"solid state reaction, He/H2",polycrystalline,700,3.6,26.77,3061000,5072,957.2,258.55,21.546,12,802,0.00245,30600,0.38
10.1007/s11664-009-0735-1,0.00137,-176,1.59,Mg2Si0.6Ge0.4Bi0.02,"solid state reaction, He/H2",polycrystalline,700,1.94,32.68,2694000,5169,1229,258.35,21.529,12,730,0.00227,31000,0.643
10.1007/s11664-009-0735-1,0.04,149,0.04,Mg2Si0.98Ag0.02,"solid state reaction, He/H2",polycrystalline,700,3.67,26.1,353300,4954,699.7,258.55,21.546,12,25.2,5.59E-05,22200,0.012
10.1007/s11664-009-0735-1,0.015,319,0.48,Mg2Si0.6Ge0.4Ag0.02,"solid state reaction, He/H2",polycrystalline,700,2.57,32.01,493400,5075,1026,258.35,21.529,12,67.1,0.000682,102000,0.045
10.1007/s11664-009-0735-1,0.00186,-212,2.43,Mg2Si0.98Bi0.02,"solid state reaction, He/H2",polycrystalline,1000,2.75,26.77,3061000,5072,957.2,258.55,21.546,12,539,0.00243,45100,0.478
10.1007/s11664-009-0735-1,0.0022,-188,1.6,Mg2Si0.6Ge0.4Bi0.02,"solid state reaction, He/H2",polycrystalline,1000,1.73,32.68,2694000,5169,1229,258.35,21.529,12,455,0.0016,35200,0.641
10.1007/s11664-009-0735-1,0.0066,192,0.56,Mg2Si0.98Ag0.02,"solid state reaction, He/H2",polycrystalline,1000,3.16,26.1,353300,4954,699.7,258.55,21.546,12,152,0.000559,36900,0.117
10.1007/s11664-009-0735-1,0.00544,224,0.92,Mg2Si0.6Ge0.4Ag0.02,"solid state reaction, He/H2",polycrystalline,1000,3.48,32.01,493400,5075,1026,258.35,21.529,12,184,0.000922,50200,0.129
10.1007/s11664-009-0815-2,0.107,277,0.02,Cu1Fe0.9Cr0.1O2,Solid state reaction,polycrystalline,300,,37.75,6756,1683,1344,136.95,11.412,12,9.339,7.17E-05,76800,
10.1007/s11664-009-0815-2,0.0018,98,0.16,Cu1Rh0.9Mg0.1O2,Solid state reaction,polycrystalline,300,,47.65,485900000,2250,4486,140.56,11.713,12,557,0.000531,9540,
10.1007/s11664-009-0815-2,0.197,300,0.01,Cu1Cr0.98Mg0.02O2,Solid state reaction,polycrystalline,300,,36.75,8512,1883,2174,131.12,10.927,12,5.085,4.58E-05,90000,
10.1007/s11664-009-0815-2,0.051,-132,0.01,Zn0.9975Al0.0025O1,"solid state reaction, vacuum",polycrystalline,300,,40.64,10770,1363,1620,47.62,11.905,4,19.6,3.41E-05,17400,
10.1007/s11664-009-0815-2,0.015,-115,0.03,Zn0.995Al0.005O1,"solid state reaction, vacuum",polycrystalline,300,,40.59,10760,1362,1619,47.62,11.905,4,66.2,8.82E-05,13300,
10.1007/s11664-009-0815-2,0.01,-114,0.04,Zn0.9925Al0.0075O1,"solid state reaction, vacuum",polycrystalline,300,,40.55,10740,1362,1618,47.62,11.905,4,97,0.000126,13000,
10.1007/s11664-009-0815-2,0.00678,-111,0.05,Zn0.99Al0.01O1,"solid state reaction, vacuum",polycrystalline,300,,40.5,10730,1362,1616,47.62,11.905,4,148,0.000182,12300,
10.1007/s11664-009-0815-2,0.021,-145,0.03,Zn0.97Al0.03O1,"solid state reaction, vacuum",polycrystalline,300,,40.11,10610,1360,1608,47.62,11.905,4,46.7,9.81E-05,21000,
10.1007/s11664-009-0815-2,0.07,299,0.05,Cu1Fe0.9Cr0.1O2,Solid state reaction,polycrystalline,400,,37.75,6756,1683,1344,136.95,11.412,12,14.3,0.000128,89400,
10.1007/s11664-009-0815-2,0.00194,115,0.27,Cu1Rh0.9Mg0.1O2,Solid state reaction,polycrystalline,400,,47.65,485900000,2250,4486,140.56,11.713,12,516,0.000684,13300,
10.1007/s11664-009-0815-2,0.119,321,0.03,Cu1Cr0.98Mg0.02O2,Solid state reaction,polycrystalline,400,,36.75,8512,1883,2174,131.12,10.927,12,8.396,8.67E-05,103000,
10.1007/s11664-009-0815-2,0.05,-135,0.01,Zn0.9975Al0.0025O1,"solid state reaction, vacuum",polycrystalline,400,,40.64,10770,1363,1620,47.62,11.905,4,19.8,3.61E-05,18200,
10.1007/s11664-009-0815-2,0.015,-128,0.04,Zn0.995Al0.005O1,"solid state reaction, vacuum",polycrystalline,400,,40.59,10760,1362,1619,47.62,11.905,4,66.5,0.00011,16500,
10.1007/s11664-009-0815-2,0.01,-123,0.06,Zn0.9925Al0.0075O1,"solid state reaction, vacuum",polycrystalline,400,,40.55,10740,1362,1618,47.62,11.905,4,97,0.000148,15300,
10.1007/s11664-009-0815-2,0.00709,-117,0.08,Zn0.99Al0.01O1,"solid state reaction, vacuum",polycrystalline,400,,40.5,10730,1362,1616,47.62,11.905,4,141,0.000194,13700,
10.1007/s11664-009-0815-2,0.021,-150,0.04,Zn0.97Al0.03O1,"solid state reaction, vacuum",polycrystalline,400,,40.11,10610,1360,1608,47.62,11.905,4,46.6,0.000105,22500,
10.1007/s11664-009-0815-2,0.056,321,0.13,Cu1Fe0.9Cr0.1O2,Solid state reaction,polycrystalline,700,,37.75,6756,1683,1344,136.95,11.412,12,18,0.000185,103000,
10.1007/s11664-009-0815-2,0.0032,146,0.46,Cu1Rh0.9Mg0.1O2,Solid state reaction,polycrystalline,700,,47.65,485900000,2250,4486,140.56,11.713,12,313,0.000662,21200,
10.1007/s11664-009-0815-2,0.087,352,0.1,Cu1Cr0.98Mg0.02O2,Solid state reaction,polycrystalline,700,,36.75,8512,1883,2174,131.12,10.927,12,11.6,0.000143,124000,
10.1007/s11664-009-0815-2,0.041,-181,0.06,Zn0.9975Al0.0025O1,"solid state reaction, vacuum",polycrystalline,700,,40.64,10770,1363,1620,47.62,11.905,4,24.2,7.92E-05,32700,
10.1007/s11664-009-0815-2,0.015,-163,0.12,Zn0.995Al0.005O1,"solid state reaction, vacuum",polycrystalline,700,,40.59,10760,1362,1619,47.62,11.905,4,64.8,0.000172,26500,
10.1007/s11664-009-0815-2,0.011,-155,0.15,Zn0.9925Al0.0075O1,"solid state reaction, vacuum",polycrystalline,700,,40.55,10740,1362,1618,47.62,11.905,4,90.1,0.000215,23900,
10.1007/s11664-009-0815-2,0.00796,-147,0.19,Zn0.99Al0.01O1,"solid state reaction, vacuum",polycrystalline,700,,40.5,10730,1362,1616,47.62,11.905,4,126,0.000272,21600,
10.1007/s11664-009-0815-2,0.022,-178,0.1,Zn0.97Al0.03O1,"solid state reaction, vacuum",polycrystalline,700,,40.11,10610,1360,1608,47.62,11.905,4,45.2,0.000143,31500,
10.1007/s11664-009-0815-2,0.053,325,0.2,Cu1Fe0.9Cr0.1O2,Solid state reaction,polycrystalline,1000,,37.75,6756,1683,1344,136.95,11.412,12,18.8,0.000198,106000,
10.1007/s11664-009-0815-2,0.00408,168,0.69,Cu1Rh0.9Mg0.1O2,Solid state reaction,polycrystalline,1000,,47.65,485900000,2250,4486,140.56,11.713,12,245,0.000691,28200,
10.1007/s11664-009-0815-2,0.072,355,0.17,Cu1Cr0.98Mg0.02O2,Solid state reaction,polycrystalline,1000,,36.75,8512,1883,2174,131.12,10.927,12,13.9,0.000175,126000,
10.1007/s11664-009-0815-2,0.024,-219,0.2,Zn0.9975Al0.0025O1,"solid state reaction, vacuum",polycrystalline,1000,,40.64,10770,1363,1620,47.62,11.905,4,41.8,0.0002,47800,
10.1007/s11664-009-0815-2,0.011,-205,0.38,Zn0.995Al0.005O1,"solid state reaction, vacuum",polycrystalline,1000,,40.59,10760,1362,1619,47.62,11.905,4,91.4,0.000383,41900,
10.1007/s11664-009-0815-2,0.00953,-188,0.37,Zn0.9925Al0.0075O1,"solid state reaction, vacuum",polycrystalline,1000,,40.55,10740,1362,1618,47.62,11.905,4,105,0.00037,35300,
10.1007/s11664-009-0815-2,0.00772,-176,0.4,Zn0.99Al0.01O1,"solid state reaction, vacuum",polycrystalline,1000,,40.5,10730,1362,1616,47.62,11.905,4,130,0.0004,30900,
10.1007/s11664-009-0815-2,0.017,-208,0.25,Zn0.97Al0.03O1,"solid state reaction, vacuum",polycrystalline,1000,,40.11,10610,1360,1608,47.62,11.905,4,58.6,0.000252,43100,
10.1007/s11664-009-0975-0,0.000509,22,0.03,Cr1.3Mo6S8,"solid state reaction, vacuum",polycrystalline,300,1.938,58.82,557400,1985,3955,269.41,17.608,15.3,1970,9.09E-05,463,0.742
10.1007/s11664-009-0975-0,0.00069,27,0.03,Mn1.3Mo6S8,"solid state reaction, vacuum",polycrystalline,300,1.432,59.07,554800,1871,3777,816.76,18.15,45,1450,0.000108,745,0.74
10.1007/s11664-009-0975-0,0.00065,23,0.02,Fe1.3Mo6S8,"solid state reaction, vacuum",polycrystalline,300,1.488,59.14,554000,1937,3740,807.22,17.938,45,1540,7.88E-05,512,0.757
10.1007/s11664-009-0975-0,0.000618,8,0.00332,Ni2.0Mo6S8,"solid state reaction, vacuum",polycrystalline,300,1.714,59.35,528800,1782,3642,801.34,16.695,48,1620,1.11E-05,68.3,0.691
10.1007/s11664-009-0975-0,0.000832,48,0.08,Cu4.0Mo6S8,"solid state reaction, vacuum",polycrystalline,300,1.348,60.36,465000,1820,3380,853.58,15.807,54,1200,0.000275,2280,0.653
10.1007/s11664-009-0975-0,0.000552,27,0.05,Cr1.3Mo6S8,"solid state reaction, vacuum",polycrystalline,400,2.106,58.82,557400,1985,3955,269.41,17.608,15.3,1810,0.000133,733,0.84
10.1007/s11664-009-0975-0,0.000737,31,0.05,Mn1.3Mo6S8,"solid state reaction, vacuum",polycrystalline,400,1.627,59.07,554800,1871,3777,816.76,18.15,45,1360,0.00013,960,0.814
10.1007/s11664-009-0975-0,0.000673,28,0.05,Fe1.3Mo6S8,"solid state reaction, vacuum",polycrystalline,400,1.852,59.14,554000,1937,3740,807.22,17.938,45,1490,0.000118,795,0.783
10.1007/s11664-009-0975-0,0.000512,9,0.00657,Ni2.0Mo6S8,"solid state reaction, vacuum",polycrystalline,400,2.33,59.35,528800,1782,3642,801.34,16.695,48,1950,1.64E-05,84.1,0.819
10.1007/s11664-009-0975-0,0.00102,62,0.15,Cu4.0Mo6S8,"solid state reaction, vacuum",polycrystalline,400,1.431,60.36,465000,1820,3380,853.58,15.807,54,976,0.00037,3790,0.666
10.1007/s11664-009-0975-0,0.000693,51,0.26,Cr1.3Mo6S8,"solid state reaction, vacuum",polycrystalline,700,2.69,58.82,557400,1985,3955,269.41,17.608,15.3,1440,0.000378,2620,0.916
10.1007/s11664-009-0975-0,0.000878,48,0.18,Mn1.3Mo6S8,"solid state reaction, vacuum",polycrystalline,700,2.353,59.07,554800,1871,3777,816.76,18.15,45,1140,0.000259,2270,0.827
10.1007/s11664-009-0975-0,0.00076,45,0.19,Fe1.3Mo6S8,"solid state reaction, vacuum",polycrystalline,700,2.775,59.14,554000,1937,3740,807.22,17.938,45,1320,0.00027,2050,0.81
10.1007/s11664-009-0975-0,0.000457,21,0.07,Ni2.0Mo6S8,"solid state reaction, vacuum",polycrystalline,700,4.237,59.35,528800,1782,3642,801.34,16.695,48,2190,9.49E-05,434,0.883
10.1007/s11664-009-0975-0,0.00169,105,0.46,Cu4.0Mo6S8,"solid state reaction, vacuum",polycrystalline,700,1.791,60.36,465000,1820,3380,853.58,15.807,54,592,0.000657,11100,0.565
10.1007/s11664-009-0975-0,0.000814,70,0.6,Cr1.3Mo6S8,"solid state reaction, vacuum",polycrystalline,1000,3.192,58.82,557400,1985,3955,269.41,17.608,15.3,1230,0.000601,4890,0.939
10.1007/s11664-009-0975-0,0.000962,57,0.34,Mn1.3Mo6S8,"solid state reaction, vacuum",polycrystalline,1000,2.882,59.07,554800,1871,3777,816.76,18.15,45,1040,0.000343,3300,0.88
10.1007/s11664-009-0975-0,0.000826,54,0.35,Fe1.3Mo6S8,"solid state reaction, vacuum",polycrystalline,1000,3.416,59.14,554000,1937,3740,807.22,17.938,45,1210,0.000352,2910,0.865
10.1007/s11664-009-0975-0,0.000468,33,0.24,Ni2.0Mo6S8,"solid state reaction, vacuum",polycrystalline,1000,5.975,59.35,528800,1782,3642,801.34,16.695,48,2140,0.000236,1100,0.872
10.1007/s11664-009-0975-0,0.00218,133,0.81,Cu4.0Mo6S8,"solid state reaction, vacuum",polycrystalline,1000,2.039,60.36,465000,1820,3380,853.58,15.807,54,459,0.000812,17700,0.549
10.1016/0022-4596(91)90248-G,0.00576,-75,0.03,Ca0.9Tb0.1Mn1O3,Solid state reaction,polycrystalline,300,1.484,30.98,96250,2591,1460,209.58,10.479,20,174,9.76E-05,5620,0.086
10.1016/0022-4596(91)90248-G,0.00607,-46,0.01,Ca0.7Tb0.3Mn1O3,Solid state reaction,polycrystalline,300,2.17,35.73,249700,3759,1755,213.15,10.658,20,165,3.53E-05,2140,0.056
10.1016/0022-4596(91)90248-G,0.00669,-72,0.02,Ca0.9Ho0.1Mn1O3,Solid state reaction,polycrystalline,300,1.637,31.1,85220,2618,1467,209.04,10.452,20,149,7.75E-05,5190,0.067
10.1016/0022-4596(91)90248-G,0.00512,-44,0.01,Ca0.7Ho0.3Mn1O3,Solid state reaction,polycrystalline,300,2.144,36.09,219600,3816,1769,212.3,10.615,20,195,3.73E-05,1910,0.067
10.1016/0022-4596(91)90248-G,0.00437,-71,0.03,Ca0.9Y0.1Mn1O3,Solid state reaction,polycrystalline,300,1.489,29.58,2323,2287,1352,212.3,10.615,20,229,0.000114,4970,0.112
10.1016/0022-4596(91)90248-G,0.00763,-42,0.00681,Ca0.7Y0.3Mn1O3,Solid state reaction,polycrystalline,300,1.793,31.53,5816,3058,1490,219.83,10.992,20,131,2.27E-05,1730,0.054
10.1016/0022-4596(91)90248-G,0.00639,-94,0.06,Ca0.9Tb0.1Mn1O3,Solid state reaction,polycrystalline,400,1.571,30.98,96250,2591,1460,209.58,10.479,20,157,0.000138,8800,0.097
10.1016/0022-4596(91)90248-G,0.0055,-44,0.01,Ca0.7Tb0.3Mn1O3,Solid state reaction,polycrystalline,400,1.466,35.73,249700,3759,1755,213.15,10.658,20,182,3.58E-05,1970,0.121
10.1016/0022-4596(91)90248-G,0.0074,-82,0.04,Ca0.9Ho0.1Mn1O3,Solid state reaction,polycrystalline,400,1.546,31.1,85220,2618,1467,209.04,10.452,20,135,9.04E-05,6690,0.085
10.1016/0022-4596(91)90248-G,0.0044,-45,0.02,Ca0.7Ho0.3Mn1O3,Solid state reaction,polycrystalline,400,1.524,36.09,219600,3816,1769,212.3,10.615,20,228,4.62E-05,2030,0.146
10.1016/0022-4596(91)90248-G,0.00478,-82,0.06,Ca0.9Y0.1Mn1O3,Solid state reaction,polycrystalline,400,1.482,29.58,2323,2287,1352,212.3,10.615,20,209,0.00014,6680,0.138
10.1016/0022-4596(91)90248-G,0.00649,-42,0.01,Ca0.7Y0.3Mn1O3,Solid state reaction,polycrystalline,400,1.467,31.53,5816,3058,1490,219.83,10.992,20,154,2.67E-05,1730,0.102
10.1016/0022-4596(91)90248-G,0.00832,-125,0.13,Ca0.9Tb0.1Mn1O3,Solid state reaction,polycrystalline,700,1.575,30.98,96250,2591,1460,209.58,10.479,20,120,0.000187,15500,0.13
10.1016/0022-4596(91)90248-G,0.00526,-55,0.04,Ca0.7Tb0.3Mn1O3,Solid state reaction,polycrystalline,700,1.462,35.73,249700,3759,1755,213.15,10.658,20,190,5.82E-05,3060,0.222
10.1016/0022-4596(91)90248-G,0.0095,-101,0.08,Ca0.9Ho0.1Mn1O3,Solid state reaction,polycrystalline,700,1.518,31.1,85220,2618,1467,209.04,10.452,20,105,0.000108,10300,0.118
10.1016/0022-4596(91)90248-G,0.00377,-51,0.05,Ca0.7Ho0.3Mn1O3,Solid state reaction,polycrystalline,700,1.417,36.09,219600,3816,1769,212.3,10.615,20,265,6.90E-05,2600,0.32
10.1016/0022-4596(91)90248-G,0.00592,-113,0.15,Ca0.9Y0.1Mn1O3,Solid state reaction,polycrystalline,700,1.601,29.58,2323,2287,1352,212.3,10.615,20,169,0.000215,12700,0.18
10.1016/0022-4596(91)90248-G,0.00628,-52,0.03,Ca0.7Y0.3Mn1O3,Solid state reaction,polycrystalline,700,1.515,31.53,5816,3058,1490,219.83,10.992,20,159,4.38E-05,2750,0.18
10.1016/0022-4596(91)90248-G,0.01,-152,0.23,Ca0.9Tb0.1Mn1O3,Solid state reaction,polycrystalline,1000,1.604,30.98,96250,2591,1460,209.58,10.479,20,97.6,0.000227,23200,0.148
10.1016/0022-4596(91)90248-G,0.00559,-68,0.08,Ca0.7Tb0.3Mn1O3,Solid state reaction,polycrystalline,1000,1.681,35.73,249700,3759,1755,213.15,10.658,20,179,8.33E-05,4650,0.26
10.1016/0022-4596(91)90248-G,0.012,-115,0.11,Ca0.9Ho0.1Mn1O3,Solid state reaction,polycrystalline,1000,1.471,31.1,85220,2618,1467,209.04,10.452,20,86.4,0.000113,13100,0.143
10.1016/0022-4596(91)90248-G,0.00423,-65,0.1,Ca0.7Ho0.3Mn1O3,Solid state reaction,polycrystalline,1000,1.599,36.09,219600,3816,1769,212.3,10.615,20,237,9.91E-05,4190,0.361
10.1016/0022-4596(91)90248-G,0.0071,-136,0.26,Ca0.9Y0.1Mn1O3,Solid state reaction,polycrystalline,1000,1.629,29.58,2323,2287,1352,212.3,10.615,20,141,0.000259,18400,0.211
10.1016/0022-4596(91)90248-G,0.00707,-61,0.05,Ca0.7Y0.3Mn1O3,Solid state reaction,polycrystalline,1000,1.537,31.53,5816,3058,1490,219.83,10.992,20,141,5.23E-05,3700,0.225
10.1016/j.jallcom.2003.07.016,0.000494,-82,0.41,Ba0.3Sr0.6La0.1Ti1O3,"solid state reaction , Ar",polycrystalline,300,4.07,40.7,3096,2709,1946,59.36,11.872,5,2030,0.00137,6760,0.364
10.1016/j.jallcom.2003.07.016,0.000763,-101,0.54,Ba0.3Sr0.6La0.1Ti1O3,"solid state reaction , Ar",polycrystalline,400,3.36,40.7,3096,2709,1946,59.36,11.872,5,1310,0.00135,10300,0.381
10.1016/j.jallcom.2003.07.016,0.00273,-163,0.68,Ba0.3Sr0.6La0.1Ti1O3,"solid state reaction , Ar",polycrystalline,700,1.91,40.7,3096,2709,1946,59.36,11.872,5,366,0.000973,26600,0.328
10.1016/j.jallcom.2004.02.061,0.00105,-133,0.51,Zr1Ni1.98Cu0.02Sn1,"arc melted, Ar",polycrystalline,300,7.98,81.85,165700,2246,1848,228.44,19.037,12,952,0.00168,17700,0.087
10.1016/j.jallcom.2004.02.061,0.00876,-95,0.03,Zr1Ni0.76Co0.004Cu0.2Sn1,"arc melted, Ar",polycrystalline,300,6.02,90.24,201300,2555,1934,228.44,19.037,12,114,0.000103,9020,0.014
10.1016/j.jallcom.2004.02.061,0.00117,-136,0.63,Zr1Ni1.98Cu0.02Sn1,"arc melted, Ar",polycrystalline,400,6.795,81.85,165700,2246,1848,228.44,19.037,12,855,0.00158,18500,0.123
10.1016/j.jallcom.2004.02.061,0.00695,-130,0.1,Zr1Ni0.76Co0.004Cu0.2Sn1,"arc melted, Ar",polycrystalline,400,5.3,90.24,201300,2555,1934,228.44,19.037,12,144,0.000243,16900,0.026
10.1016/j.jallcom.2004.05.078,0.00932,-177,0.1,Zr0.5Hf0.5Ni1Sn1,"arc-melted, Ar",polycrystalline,300,3.949,104.09,262000,2643,2022,226.87,18.906,12,107,0.000337,31400,0.02
10.1016/j.jallcom.2004.05.078,0.00241,-250,0.78,Zr0.5Hf0.5Ni1Sn1.998Sb0.002,"arc-melted, Ar",polycrystalline,300,2.887,107.74,314900,2632,1917,226.87,18.906,12,415,0.0026,62500,0.105
10.1016/j.jallcom.2004.05.078,0.00117,-211,1.15,Zr0.5Hf0.5Ni1Sn1.994Sb0.006,"arc-melted, Ar",polycrystalline,300,2.767,107.75,320000,2638,1919,226.87,18.906,12,858,0.00382,44500,0.227
10.1016/j.jallcom.2004.05.078,0.00877,-182,0.11,Zr0.4Hf0.4Ti0.2Ni1Sn1,"arc-melted, Ar",polycrystalline,300,,98.29,258100,2524,1954,226.87,18.906,12,114,0.000377,33000,
10.1016/j.jallcom.2004.05.078,0.00841,-330,0.39,Zr0.35Hf0.35Ti0.3Ni1Sn1,"arc-melted, Ar",polycrystalline,300,,95.39,256000,2459,1917,226.87,18.906,12,119,0.00129,109000,
10.1016/j.jallcom.2004.05.078,0.00846,-316,0.35,Zr0.3Hf0.3Ti0.4Ni1Sn1,"arc-melted, Ar",polycrystalline,300,,92.49,253700,2389,1878,226.87,18.906,12,118,0.00118,100000,
10.1016/j.jallcom.2004.05.078,0.00495,-304,0.56,Zr0.25Hf0.25Ti0.5Ni1Sn1,"arc-melted, Ar",polycrystalline,300,,89.59,251300,2315,1836,226.87,18.906,12,202,0.00186,92200,
10.1016/j.jallcom.2004.05.078,0.00467,-251,0.4,Zr0.15Hf0.15Ti0.7Ni1Sn1,"arc-melted, Ar",polycrystalline,300,,83.79,246000,2152,1744,226.87,18.906,12,214,0.00135,62900,
10.1016/j.jallcom.2004.05.078,0.00217,-281,1.46,Zr0.5Hf0.5Ni1Sn1.998Sb0.002,"arc-melted, Ar",polycrystalline,400,2.713,107.74,314900,2632,1917,226.87,18.906,12,461,0.00364,79000,0.166
10.1016/j.jallcom.2004.05.078,0.00125,-237,1.79,Zr0.5Hf0.5Ni1Sn1.994Sb0.006,"arc-melted, Ar",polycrystalline,400,2.646,107.75,320000,2638,1919,226.87,18.906,12,798,0.00448,56200,0.295
10.1016/j.jallcom.2004.05.078,0.00236,-238,1.68,Zr0.5Hf0.5Ni1Sn1,"arc-melted, Ar",polycrystalline,700,3.113,104.09,262000,2643,2022,226.87,18.906,12,423,0.0024,56600,0.232
10.1016/j.jallcom.2004.05.078,0.00154,-307,4.27,Zr0.5Hf0.5Ni1Sn1.998Sb0.002,"arc-melted, Ar",polycrystalline,700,2.947,107.74,314900,2632,1917,226.87,18.906,12,648,0.0061,94200,0.375
10.1016/j.jallcom.2004.05.078,0.00132,-274,3.99,Zr0.5Hf0.5Ni1Sn1.994Sb0.006,"arc-melted, Ar",polycrystalline,700,2.964,107.75,320000,2638,1919,226.87,18.906,12,758,0.00569,75100,0.437
10.1016/j.jallcom.2004.05.078,0.00215,-287,2.69,Zr0.4Hf0.4Ti0.2Ni1Sn1,"arc-melted, Ar",polycrystalline,700,,98.29,258100,2524,1954,226.87,18.906,12,465,0.00384,82500,
10.1016/j.jallcom.2004.05.078,0.00235,-345,3.55,Zr0.35Hf0.35Ti0.3Ni1Sn1,"arc-melted, Ar",polycrystalline,700,,95.39,256000,2459,1917,226.87,18.906,12,426,0.00508,119000,
10.1016/j.jallcom.2004.05.078,0.00203,-358,4.41,Zr0.3Hf0.3Ti0.4Ni1Sn1,"arc-melted, Ar",polycrystalline,700,,92.49,253700,2389,1878,226.87,18.906,12,492,0.00631,128000,
10.1016/j.jallcom.2004.05.078,0.00189,-334,4.13,Zr0.25Hf0.25Ti0.5Ni1Sn1,"arc-melted, Ar",polycrystalline,700,,89.59,251300,2315,1836,226.87,18.906,12,530,0.0059,111000,
10.1016/j.jallcom.2004.05.078,0.00168,-261,2.83,Zr0.15Hf0.15Ti0.7Ni1Sn1,"arc-melted, Ar",polycrystalline,700,,83.79,246000,2152,1744,226.87,18.906,12,594,0.00404,68100,
10.1016/j.jallcom.2005.04.060,0.048,-191,0.02,Fe0.998Co0.002Si2,"arc-melted, Ar",polycrystalline,300,5.69,37.34,48.87,3570,1187,601.91,12.54,48,21.1,7.68E-05,36500,0.00271
10.1016/j.jallcom.2005.04.060,0.128,-318,0.02,Fe0.978Co0.00196Si1.96Y0.04O0.06,"arc-melted, Ar",polycrystalline,300,4.59,37.6,1051,3739,1227,601.91,12.54,48,7.843,7.93E-05,101000,0.00125
10.1016/j.jallcom.2005.04.060,0.27,-226,0.00568,Fe0.978Co0.00196Si1.96Y0.12O0.18,"arc-melted, Ar",polycrystalline,300,2.86,38.06,2834,4040,1297,601.91,12.54,48,3.704,1.89E-05,51100,0.000948
10.1016/j.jallcom.2005.04.060,0.026,-183,0.05,Fe0.998Co0.002Si2,"arc-melted, Ar",polycrystalline,400,5.34,37.34,48.87,3570,1187,601.91,12.54,48,38.5,0.000129,33500,0.00703
10.1016/j.jallcom.2005.04.060,0.056,-327,0.08,Fe0.978Co0.00196Si1.96Y0.04O0.06,"arc-melted, Ar",polycrystalline,400,4.09,37.6,1051,3739,1227,601.91,12.54,48,17.8,0.00019,107000,0.00424
10.1016/j.jallcom.2005.04.060,0.15,-227,0.01,Fe0.978Co0.00196Si1.96Y0.12O0.18,"arc-melted, Ar",polycrystalline,400,2.64,38.06,2834,4040,1297,601.91,12.54,48,6.689,3.45E-05,51500,0.00247
10.1016/j.jallcom.2005.04.060,0.012,-181,0.19,Fe0.998Co0.002Si2,"arc-melted, Ar",polycrystalline,700,4.9,37.34,48.87,3570,1187,601.91,12.54,48,81.3,0.000265,32600,0.028
10.1016/j.jallcom.2005.04.060,0.024,-287,0.24,Fe0.978Co0.00196Si1.96Y0.04O0.06,"arc-melted, Ar",polycrystalline,700,3.95,37.6,1051,3739,1227,601.91,12.54,48,41.7,0.000343,82400,0.018
10.1016/j.jallcom.2005.04.060,0.052,-222,0.07,Fe0.978Co0.00196Si1.96Y0.12O0.18,"arc-melted, Ar",polycrystalline,700,2.96,38.06,2834,4040,1297,601.91,12.54,48,19.3,9.51E-05,49300,0.011
10.1016/j.jallcom.2005.04.060,0.00605,-87,0.13,Fe0.998Co0.002Si2,"arc-melted, Ar",polycrystalline,1000,5.02,37.34,48.87,3570,1187,601.91,12.54,48,165,0.000126,7620,0.08
10.1016/j.jallcom.2005.04.060,0.012,-101,0.08,Fe0.978Co0.00196Si1.96Y0.04O0.06,"arc-melted, Ar",polycrystalline,1000,4.21,37.6,1051,3739,1227,601.91,12.54,48,82,8.33E-05,10200,0.048
10.1016/j.jallcom.2005.04.060,0.021,-68,0.02,Fe0.978Co0.00196Si1.96Y0.12O0.18,"arc-melted, Ar",polycrystalline,1000,3.22,38.06,2834,4040,1297,601.91,12.54,48,46.7,2.16E-05,4620,0.035
10.1016/j.jallcom.2006.02.075,0.000598,-113,0.64,Zr1Ni1Sn0.98Sb0.02,"arc melted, Ar",polycrystalline,300,8.5,89.56,241400,2567,1945,228.44,19.037,12,1670,0.00214,12800,0.144
10.1016/j.jallcom.2006.02.075,0.000771,-92,0.33,Zr0.94Y0.06Ni1Sn0.96Sb0.04,"arc melted, Ar",polycrystalline,300,8.35,89.54,283400,2742,1962,228.44,19.037,12,1300,0.0011,8460,0.114
10.1016/j.jallcom.2006.02.075,0.000624,-137,1.2,Zr1Ni1Sn0.98Sb0.02,"arc melted, Ar",polycrystalline,400,7.95,89.56,241400,2567,1945,228.44,19.037,12,1600,0.00301,18800,0.197
10.1016/j.jallcom.2006.02.075,0.000788,-109,0.6,Zr0.94Y0.06Ni1Sn0.96Sb0.04,"arc melted, Ar",polycrystalline,400,6.51,89.54,283400,2742,1962,228.44,19.037,12,1270,0.00151,11900,0.19
10.1016/j.jallcom.2007.09.101,0.00162,-89,0.15,Mg2Si1,"melted, Ar",polycrystalline,300,4.5,25.57,27.34,5057,683.1,258.55,21.546,12,616,0.000488,7920,0.1
[...]
10.1109/ICT.2006.331291,0.011,-51,0.02,Ca1Yb0.4Mn0.6O3,Solid state reaction,polycrystalline,700,,38.05,121500,4663,1891,207.52,10.376,20,94.2,2.45E-05,2600,
10.1109/ICT.2006.331291,0.084,-282,0.09,Ca1Mn1O3,Solid state reaction,polycrystalline,1000,2.065,28.6,398,1861,1276,206.97,10.348,20,11.9,9.44E-05,79600,0.014
10.1109/ICT.2006.331291,0.019,-245,0.32,Ca1Yb0.05Mn0.95O3,Solid state reaction,polycrystalline,1000,1.614,29.78,19730,2309,1374,206.97,10.348,20,53.6,0.000321,60000,0.081
10.1109/ICT.2006.331291,0.00782,-128,0.21,Ca1Yb0.1Mn0.9O3,Solid state reaction,polycrystalline,1000,1.583,30.96,37590,2722,1465,207.52,10.376,20,128,0.000211,16500,0.197
10.1109/ICT.2006.331291,0.00596,-101,0.17,Ca1Yb0.15Mn0.85O3,Solid state reaction,polycrystalline,1000,1.694,32.15,54140,3105,1549,207.52,10.376,20,168,0.000171,10200,0.242
10.1109/ICT.2006.331291,0.011,-25,0.00586,Ca1Yb0.4Mn0.6O3,Solid state reaction,polycrystalline,1000,,38.05,121500,4663,1891,207.52,10.376,20,90.3,5.86E-06,650,
10.1109/ICT.2007.4569450,0.00604,-139,0.13,Ca0.96Sm0.04Mn1O3,Co-precipitation,polycrystalline,400,,29.48,6638,2150,1349,210.39,10.519,20,166,0.000322,19400,
10.1109/ICT.2007.4569450,0.00825,-170,0.24,Ca0.96Sm0.04Mn1O3,Co-precipitation,polycrystalline,700,,29.48,6638,2150,1349,210.39,10.519,20,121,0.00035,28900,
10.1109/ICT.2007.4569450,0.011,-188,0.32,Ca0.96Sm0.04Mn1O3,Co-precipitation,polycrystalline,1000,,29.48,6638,2150,1349,210.39,10.519,20,90.5,0.000318,35200,
10.1111/j.1551-2916.2010.03673.x,0.031,-212,0.04,Ca1Gd0.98Mn0.02O3,Co-precipitation,polycrystalline,300,,48.66,111100,6744,2336,210.36,10.518,20,32.7,0.000147,44900,
10.1111/j.1551-2916.2010.03673.x,0.015,-162,0.05,Ca1Gd0.96Mn0.04O3,Co-precipitation,polycrystalline,300,1.787,48.25,109800,6685,2323,210.36,10.518,20,67.3,0.000177,26400,0.028
10.1111/j.1551-2916.2010.03673.x,0.015,-104,0.02,Ca1Gd0.94Mn0.06O3,Co-precipitation,polycrystalline,300,2.85,47.84,108400,6625,2310,210.36,10.518,20,68.8,7.48E-05,10900,0.018
10.1111/j.1551-2916.2010.03673.x,0.028,-215,0.07,Ca1Gd0.98Mn0.02O3,Co-precipitation,polycrystalline,400,,48.66,111100,6744,2336,210.36,10.518,20,36.3,0.000168,46400,
10.1111/j.1551-2916.2010.03673.x,0.013,-164,0.08,Ca1Gd0.96Mn0.04O3,Co-precipitation,polycrystalline,400,1.615,48.25,109800,6685,2323,210.36,10.518,20,77.7,0.000208,26700,0.047
10.1111/j.1551-2916.2010.03673.x,0.011,-119,0.05,Ca1Gd0.94Mn0.06O3,Co-precipitation,polycrystalline,400,2.57,47.84,108400,6625,2310,210.36,10.518,20,88.1,0.000124,14000,0.033
10.1111/j.1551-2916.2010.03673.x,0.022,-228,0.16,Ca1Gd0.98Mn0.02O3,Co-precipitation,polycrystalline,700,,48.66,111100,6744,2336,210.36,10.518,20,45.2,0.000235,51900,
10.1111/j.1551-2916.2010.03673.x,0.012,-173,0.18,Ca1Gd0.96Mn0.04O3,Co-precipitation,polycrystalline,700,1.346,48.25,109800,6685,2323,210.36,10.518,20,85.7,0.000255,29800,0.109
10.1111/j.1551-2916.2010.03673.x,0.00866,-145,0.17,Ca1Gd0.94Mn0.06O3,Co-precipitation,polycrystalline,700,2.139,47.84,108400,6625,2310,210.36,10.518,20,115,0.000242,20900,0.092
10.1111/j.1551-2916.2010.03673.x,0.023,-235,0.24,Ca1Gd0.98Mn0.02O3,Co-precipitation,polycrystalline,1000,,48.66,111100,6744,2336,210.36,10.518,20,44,0.000244,55400,
10.1111/j.1551-2916.2010.03673.x,0.011,-173,0.28,Ca1Gd0.96Mn0.04O3,Co-precipitation,polycrystalline,1000,1.28,48.25,109800,6685,2323,210.36,10.518,20,94.6,0.000282,29800,0.18
10.1111/j.1551-2916.2010.03673.x,0.00887,-145,0.24,Ca1Gd0.94Mn0.06O3,Co-precipitation,polycrystalline,1000,1.945,47.84,108400,6625,2310,210.36,10.518,20,113,0.000236,20900,0.141
10.1111/j.1551-2916.2012.05169.x,0.00114,-19,0.0095,Sr4.5Nb4.5O15.5,"floating zone method, Ar",single crystal,300,2.45,43.28,22330,5032,4699,735.99,14.154,52,877,3.17E-05,361,0.262
10.1111/j.1551-2916.2012.05169.x,0.005,-107,0.07,Sr1.6La0.4Nb2O7,"floating zone method, Ar",single,300,1.8,44.87,24210,5577,4628,597.36,13.576,44,200,0.000229,11400,0.081
10.1126/science.1159725,0.00274,140,0.22,Tl0.01Pb0.99Te1,melted,polycrystalline,300,1.942,167.39,381200000,2806,3012,269.84,33.73,8,365,0.000719,19700,0.137
10.1126/science.1159725,0.00239,136,0.23,Tl0.02Pb0.98Te1,melted,polycrystalline,300,2.168,167.37,381300000,2829,3041,269.84,33.73,8,418,0.000775,18500,0.141
10.1126/science.1159725,0.00355,201,0.46,Tl0.01Pb0.99Te1,melted,polycrystalline,400,1.552,167.39,381200000,2806,3012,269.84,33.73,8,282,0.00114,40600,0.177
10.1126/science.1159725,0.00291,195,0.52,Tl0.02Pb0.98Te1,melted,polycrystalline,400,1.656,167.37,381300000,2829,3041,269.84,33.73,8,344,0.00131,38100,0.203
10.1126/science.1159725,0.00873,324,0.84,Tl0.01Pb0.99Te1,melted,polycrystalline,700,0.965,167.39,381200000,2806,3012,269.84,33.73,8,115,0.0012,105000,0.203
10.1126/science.1159725,0.00536,328,1.4,Tl0.02Pb0.98Te1,melted,polycrystalline,700,1.01,167.37,381300000,2829,3041,269.84,33.73,8,186,0.002,107000,0.315
10.1126/science.287.5455.1024,0.000774,105,0.43,Cs1Bi4Te6,"melted, air",single crystal,300,,157.68,469800000,4289,5526,3250.47,36.937,88,1290,0.00143,11100,
10.1126/science.287.5455.1024,0.00085,154,0.84,Sb0.005I0.015Cs0.995Bi3.98Te5.97,"melted, air",single crystal,300,1.5,157.62,469100000,4291,5525,3250.47,36.937,88,1180,0.0028,23800,0.574
10.1143/JJAP.38.L1336,28.9,295,0.000121,Li0.0024Ni0.9976O1,Solid state reaction,polycrystalline,400,16.172,37.28,6484,883.7,1270,72.93,9.116,8,0.035,3.01E-07,87000,2.09E-06
10.1143/JJAP.38.L1336,5.086,249,0.000489,Li0.0066Ni0.9944O1,Solid state reaction,polycrystalline,400,8.328,37.19,6498,884.2,1270,72.93,9.116,8,0.197,1.22E-06,62200,2.30E-05
10.1143/JJAP.38.L1336,0.064,117,0.00851,Li0.0184Ni0.9816O1,Solid state reaction,polycrystalline,400,,36.87,6533,885.3,1271,72.93,9.116,8,15.6,2.13E-05,13700,
10.1143/JJAP.38.L1336,0.012,103,0.03,Li0.0242Ni0.9758O1,Solid state reaction,polycrystalline,400,3.751,36.72,6552,885.9,1272,72.93,9.116,8,81,8.53E-05,10500,0.021
10.1143/JJAP.38.L1336,153,483,0.000107,Ni1O1,Solid state reaction,polycrystalline,700,,37.35,6477,883.5,1269,72.93,9.116,8,0.00654,1.53E-07,234000,
10.1143/JJAP.38.L1336,0.263,250,0.02,Li0.0024Ni0.9976O1,Solid state reaction,polycrystalline,700,11.391,37.28,6484,883.7,1270,72.93,9.116,8,3.804,2.37E-05,62400,0.00057
10.1143/JJAP.38.L1336,0.032,200,0.09,Li0.0066Ni0.9944O1,Solid state reaction,polycrystalline,700,6.01,37.19,6498,884.2,1270,72.93,9.116,8,31.6,0.000127,40200,0.00899
10.1143/JJAP.38.L1336,0.02,98,0.03,Li0.0184Ni0.9816O1,Solid state reaction,polycrystalline,700,,36.87,6533,885.3,1271,72.93,9.116,8,50.5,4.84E-05,9580,
10.1143/JJAP.38.L1336,0.00487,77,0.09,Li0.0242Ni0.9758O1,Solid state reaction,polycrystalline,700,3.496,36.72,6552,885.9,1272,72.93,9.116,8,206,0.000123,5990,0.1
10.1143/JJAP.38.L1336,14.6,643,0.00282,Ni1O1,Solid state reaction,polycrystalline,1000,,37.35,6477,883.5,1269,72.93,9.116,8,0.068,2.82E-06,413000,
10.1143/JJAP.38.L1336,0.047,262,0.15,Li0.0024Ni0.9976O1,Solid state reaction,polycrystalline,1000,8.444,37.28,6484,883.7,1270,72.93,9.116,8,21.5,0.000148,68900,0.0062
10.1143/JJAP.38.L1336,0.028,207,0.15,Li0.0066Ni0.9944O1,Solid state reaction,polycrystalline,1000,5.305,37.19,6498,884.2,1270,72.93,9.116,8,35.1,0.00015,42700,0.016
10.1143/JJAP.38.L1336,0.00666,105,0.17,Li0.0184Ni0.9816O1,Solid state reaction,polycrystalline,1000,,36.87,6533,885.3,1271,72.93,9.116,8,150,0.000166,11100,
10.1143/JJAP.38.L1336,0.00387,79,0.16,Li0.0242Ni0.9758O1,Solid state reaction,polycrystalline,1000,2.55,36.72,6552,885.9,1272,72.93,9.116,8,258,0.000163,6320,0.247
10.1143/JJAP.39.L1127,0.00147,135,0.37,Ca2Co2O5,melted,single crystal,300,2.3,30.89,15420,2551,1702,236.38,10.883,21.72,681,0.00124,18200,0.217
10.1143/JJAP.39.L1127,0.00147,142,0.55,Ca2Co2O5,melted,single crystal,400,2.35,30.89,15420,2551,1702,236.38,10.883,21.72,682,0.00138,20300,0.283
10.1143/JJAP.39.L1127,0.00145,173,1.46,Ca2Co2O5,melted,single crystal,700,2.6,30.89,15420,2551,1702,236.38,10.883,21.72,691,0.00208,30100,0.454
10.1143/JJAP.39.L1127,0.00138,207,3.12,Ca2Co2O5,melted,single crystal,1000,2.9,30.89,15420,2551,1702,236.38,10.883,21.72,725,0.00312,43000,0.61
10.1143/JJAP.40.4644,0.000295,82,0.68,Na1Co2O4,"flux (NaCl), air",single crystal,300,19.08,29.26,20930,2036,1740,75.67,10.81,7,3390,0.00228,6710,0.13
10.1143/JJAP.40.4644,0.00211,104,0.15,Na1Co2O4,"solid state reaction, air",polycrystalline,300,1.904,29.26,20930,2036,1740,75.67,10.81,7,475,0.000514,10800,0.183
10.1143/JJAP.40.4644,0.000354,98,1.09,Na1Co2O4,"flux (NaCl), air",single crystal,400,13.53,29.26,20930,2036,1740,75.67,10.81,7,2830,0.00271,9600,0.204
10.1143/JJAP.40.4644,0.00253,118,0.22,Na1Co2O4,"solid state reaction, air",polycrystalline,400,1.834,29.26,20930,2036,1740,75.67,10.81,7,395,0.000551,13900,0.21
10.1143/JJAP.40.4644,0.000484,146,3.08,Na1Co2O4,"flux (NaCl), air",single crystal,700,5.702,29.26,20930,2036,1740,75.67,10.81,7,2060,0.0044,21300,0.618
10.1143/JJAP.40.4644,0.0034,161,0.53,Na1Co2O4,"solid state reaction, air",polycrystalline,700,2.093,29.26,20930,2036,1740,75.67,10.81,7,294,0.000762,25900,0.24
10.1143/JJAP.40.4644,0.0006,200,6.67,Na1Co2O4,"flux (NaCl), air",single crystal,1000,4.764,29.26,20930,2036,1740,75.67,10.81,7,1670,0.00667,40000,0.854
10.1143/JJAP.40.4644,0.004,175,0.77,Na1Co2O4,"solid state reaction, air",polycrystalline,1000,2.224,29.26,20930,2036,1740,75.67,10.81,7,250,0.000766,30600,0.274
10.1201/9781420049718.ch19,0.00055,162,1.43,Bi2Te3,melted,single crystal,300,1.468,160.15,508700000,4147,5487,509.21,33.947,15,1820,0.00477,26200,0.906
10.1201/9781420049718.ch19,0.00045,-174,2.02,Bi2Te3,melted,single crystal,300,4.017,160.15,508700000,4147,5487,509.21,33.947,15,2220,0.00673,30300,0.405
10.1201/9781420049718.ch19,0.00019,38,0.23,Sb2Te3,melted,single crystal,300,3.378,125.26,613100000,4841,4345,479.59,31.973,15,5260,0.00076,1440,1.141
10.1201/9781420049718.ch19,0.000122,63,0.98,Sb2Te3,melted,single crystal,300,5.205,125.26,613100000,4841,4345,479.59,31.973,15,8200,0.00325,3970,1.153
10.1201/9781420049718.ch22,0.000694,79,0.27,Ag0.15Sb0.15Te1.15Ge0.85,melted,single crystal,300,1.499,105.62,605500000,3762,3810,479.59,31.973,15,1440,0.000891,6190,0.704
10.1201/9781420049718.ch22,0.00085,122,0.7,Ag0.15Sb0.15Te1.15Ge0.85,melted,single crystal,400,1.531,105.62,605500000,3762,3810,479.59,31.973,15,1180,0.00176,14900,0.75
10.1201/9781420049718.ch22,0.00121,199,2.29,Ag0.15Sb0.15Te1.15Ge0.85,melted,single crystal,700,1.651,105.62,605500000,3762,3810,479.59,31.973,15,824,0.00326,39600,0.853
10.1201/9781420049718.ch22,0.00128,166,2.15,Ag0.15Sb0.15Te1.15Ge0.85,melted,single crystal,1000,2.272,105.62,605500000,3762,3810,479.59,31.973,15,784,0.00215,27500,0.842
10.1557/jmr.2010.78,0.062,-220,0.02,Sr0.61Ba0.39Nb2O6,"templated grain growth, air, anneal PO<sub>2</sub> 10<sup>-14</sup>",polycrystalline,300,1.667,43.2,26540,5182,5061,610.4,13.564,45,16.2,7.82E-05,48400,0.0071
10.1557/jmr.2010.78,0.016,-220,0.12,Sr0.61Ba0.39Nb2O6,"templated grain growth, air, anneal PO<sub>2</sub> 10<sup>-14</sup>",polycrystalline,400,2.02,43.2,26540,5182,5061,610.4,13.564,45,61.6,0.000298,48400,0.03
10.1557/jmr.2010.78,0.008,-216,0.41,Sr0.61Ba0.39Nb2O6,"templated grain growth, air, anneal PO<sub>2</sub> 10<sup>-14</sup>",polycrystalline,700,2.172,43.2,26540,5182,5061,610.4,13.564,45,125,0.000583,46700,0.098
10.1557/jmr.2011.140,0.02,-180,0.05,Ca1Mn0.98Nb0.02O3,Ultrasonic Spray Pyrolysis,polycrystalline,300,2.5,28.75,1087,1950,1369,208.21,10.41,20,50,0.000162,32400,0.015
10.1557/jmr.2011.140,0.022,-204,0.08,Ca1Mn0.98Nb0.02O3,Ultrasonic Spray Pyrolysis,polycrystalline,400,2.075,28.75,1087,1950,1369,208.21,10.41,20,46.4,0.000193,41600,0.022
10.1557/jmr.2011.140,0.028,-235,0.14,Ca1Mn0.98Nb0.02O3,Ultrasonic Spray Pyrolysis,polycrystalline,700,1.631,28.75,1087,1950,1369,208.21,10.41,20,35.3,0.000194,55000,0.037
10.1557/jmr.2011.140,0.031,-248,0.2,Ca1Mn0.98Nb0.02O3,Ultrasonic Spray Pyrolysis,polycrystalline,1000,1.381,28.75,1087,1950,1369,208.21,10.41,20,32.4,0.0002,61600,0.057
10.1557/jmr.2011.163,0.00113,-192,0.98,In0.2Co4Sb12,Solid state reaction,polycrystalline,300,2.57,106.16,4318000,7180,3295,742.742,22.924,32.4,882,0.00326,36900,0.251
10.1557/jmr.2011.163,0.00129,-214,1.43,In0.2Co4Sb12,Solid state reaction,polycrystalline,400,2.214,106.16,4318000,7180,3295,742.742,22.924,32.4,777,0.00357,46000,0.342
10.1557/jmr.2011.163,0.0016,-248,2.68,In0.2Co4Sb12,Solid state reaction,polycrystalline,700,1.937,106.16,4318000,7180,3295,742.742,22.924,32.4,626,0.00383,61300,0.552
10.1557/PROC-793-S3.3,0.00284,-20,0.00556,La1Ni1O3,"Evaporate nitrates (1173 K, air)",polycrystalline,400,,49.12,17470,5693,2221,339.43,11.314,30,352,1.39E-05,395,
10.1557/PROC-793-S3.3,0.00267,-21,0.00657,La0.9Bi0.1Ni1O3,"Evaporate nitrates (1173 K, air)",polycrystalline,400,,50.52,4882000,5452,2483,339.43,11.314,30,374,1.64E-05,439,
10.1557/PROC-793-S3.3,0.0046,-26,0.01,La1Ni1O3,"Evaporate nitrates (1173 K, air)",polycrystalline,700,,49.12,17470,5693,2221,339.43,11.314,30,217,1.44E-05,664,
10.1557/PROC-793-S3.3,0.00413,-28,0.01,La0.9Bi0.1Ni1O3,"Evaporate nitrates (1173 K, air)",polycrystalline,700,,50.52,4882000,5452,2483,339.43,11.314,30,242,1.96E-05,810,
10.1557/PROC-793-S3.3,0.00622,-27,0.01,La1Ni1O3,"Evaporate nitrates (1173 K, air)",polycrystalline,1000,,49.12,17470,5693,2221,339.43,11.314,30,161,1.17E-05,731,
10.1557/PROC-793-S3.3,0.00609,-31,0.02,La0.9Bi0.1Ni1O3,"Evaporate nitrates (1173 K, air)",polycrystalline,1000,,50.52,4882000,5452,2483,339.43,11.314,30,164,1.56E-05,948,
10.3390/ma3042606,0.000324,-41,0.16,Bi1.2S1.2Ti2S4,"solid-liquid-vapor reaction, vacuum",polycrystalline,300,2.94,61.1,28740000,3036,3543,175.2,20.857,8.4,3090,0.000526,1710,0.768
10.3390/ma3042606,0.00046,-51,0.17,Pb1.8S1.8Ti2S4,"solid-liquid-vapor reaction, vacuum",polycrystalline,300,2.9,68.19,48160,1920,1526,175.2,20.857,8.4,2170,0.000561,2580,0.549
10.3390/ma3042606,0.000478,-65,0.26,Sn1.2S1.2Ti2S4,"solid-liquid-vapor reaction, vacuum",polycrystalline,300,2.66,48.21,157400,1480,1355,175.2,20.857,8.4,2090,0.000878,4200,0.576
10.3390/ma3042606,0.000499,-55,0.24,Bi1.2S1.2Ti2S4,"solid-liquid-vapor reaction, vacuum",polycrystalline,400,2.41,61.1,28740000,3036,3543,175.2,20.857,8.4,2000,0.000603,3010,0.812
10.3390/ma3042606,0.000728,-71,0.28,Pb1.8S1.8Ti2S4,"solid-liquid-vapor reaction, vacuum",polycrystalline,400,2.51,68.19,48160,1920,1526,175.2,20.857,8.4,1370,0.000689,5010,0.534
10.3390/ma3042606,0.00085,-89,0.37,Sn1.2S1.2Ti2S4,"solid-liquid-vapor reaction, vacuum",polycrystalline,400,2.03,48.21,157400,1480,1355,175.2,20.857,8.4,1180,0.000928,7890,0.566
10.3390/ma3042606,0.000948,-89,0.59,Bi1.2S1.2Ti2S4,"solid-liquid-vapor reaction, vacuum",polycrystalline,700,2.11,61.1,28740000,3036,3543,175.2,20.857,8.4,1050,0.000838,7940,0.854
10.3390/ma3042606,0.00217,-129,0.53,Pb1.8S1.8Ti2S4,"solid-liquid-vapor reaction, vacuum",polycrystalline,700,1.95,68.19,48160,1920,1526,175.2,20.857,8.4,460,0.000764,16600,0.403
10.3390/ma3042606,0.00217,-141,0.64,Sn1.2S1.2Ti2S4,"solid-liquid-vapor reaction, vacuum",polycrystalline,700,1.69,48.21,157400,1480,1355,175.2,20.857,8.4,460,0.000912,19800,0.465
10.1063/1.15623,0.00197,126,0.24,Ca3Co4O9,"flux (SrCl2), air",single crystal,300,3.51,31.25,17150,2511,1757,147.11,10.865,13.54,507,0.000799,15800,0.106
10.1063/1.15623,0.00217,152,0.43,Ca3Co4O9,"flux (SrCl2), air",single crystal,400,3.444,31.25,17150,2511,1757,147.11,10.865,13.54,460,0.00106,23100,0.13
10.1063/1.15623,0.00231,197,1.17,Ca3Co4O9,"flux (SrCl2), air",single crystal,700,3.15,31.25,17150,2511,1757,147.11,10.865,13.54,432,0.00168,38800,0.234
10.1063/1.15623,0.00227,245,2.64,Ca3Co4O9,"flux (SrCl2), air",single crystal,1000,2.837,31.25,17150,2511,1757,147.11,10.865,13.54,440,0.00264,60000,0.379
10.1126/science.272.5266.1325,0.000993,68,0.14,Ce1Fe4Sb12,"melted, vacuum",polycrystalline,300,,107.33,4005000,7355,3146,762.3,22.421,34,1010,0.000469,4660,
10.1126/science.272.5266.1326,0.00147,87,0.15,Ce1Fe3Co1Sb12,"melted, vacuum",polycrystalline,300,1.37,107.51,4000000,7367,3185,756.81,22.259,34,679,0.000509,7490,0.363
10.1126/science.272.5266.1327,0.00274,104,0.12,Ce1Fe2.5Co1.5Sb12,"melted, vacuum",polycrystalline,300,,107.6,3997000,7373,3204,756.81,22.259,34,365,0.000397,10900,
10.1126/science.272.5266.1328,0.00473,108,0.07,Ce1Fe2Co2Sb12,"melted, vacuum",polycrystalline,300,,107.69,3994000,7379,3223,747,21.971,34,211,0.000245,11600,
10.1126/science.272.5266.1329,0.01,-87,0.02,Ce1Fe1Co3Sb12,"melted, vacuum",polycrystalline,300,,107.88,3988000,7391,3261,747,21.971,34,95.7,7.24E-05,7570,
10.1126/science.272.5266.1330,0.061,16,0.000131,Ce1Fe1.5Co2.5Sb12,"melted, vacuum",polycrystalline,300,,107.78,3991000,7385,3242,747,21.971,34,16.4,4.38E-07,267,
10.1126/science.272.5266.1331,0.00164,108,0.21,La1Fe3Co1Sb12,"melted, vacuum",polycrystalline,300,1.6,107.44,4003000,7366,3185,752.85,22.143,34,609,0.000715,11700,0.278
10.1126/science.272.5266.1332,0.00106,87,0.29,Ce1Fe4Sb12,"melted, vacuum",polycrystalline,400,,107.33,4005000,7355,3146,762.3,22.421,34,947,0.000717,7570,
10.1126/science.272.5266.1333,0.00163,108,0.29,Ce1Fe3Co1Sb12,"melted, vacuum",polycrystalline,400,,107.51,4000000,7367,3185,756.81,22.259,34,615,0.000713,11600,
10.1126/science.272.5266.1334,0.00288,123,0.21,Ce1Fe2.5Co1.5Sb12,"melted, vacuum",polycrystalline,400,,107.6,3997000,7373,3204,756.81,22.259,34,347,0.000526,15100,
10.1126/science.272.5266.1335,0.00481,135,0.15,Ce1Fe2Co2Sb12,"melted, vacuum",polycrystalline,400,,107.69,3994000,7379,3223,747,21.971,34,208,0.000376,18100,
10.1126/science.272.5266.1336,0.00985,-102,0.04,Ce1Fe1Co3Sb12,"melted, vacuum",polycrystalline,400,,107.88,3988000,7391,3261,747,21.971,34,101,0.000106,10500,
10.1126/science.272.5266.1337,0.045,12,0.000129,Ce1Fe1.5Co2.5Sb12,"melted, vacuum",polycrystalline,400,,107.78,3991000,7385,3242,747,21.971,34,22.4,3.23E-07,144,
10.1126/science.272.5266.1338,0.00183,143,0.44,La1Fe3Co1Sb12,"melted, vacuum",polycrystalline,400,1.6,107.44,4003000,7366,3185,752.85,22.143,34,546,0.00111,20400,0.333
10.1126/science.272.5266.1339,0.0013,129,0.89,Ce1Fe4Sb12,"melted, vacuum",polycrystalline,700,,107.33,4005000,7355,3146,762.3,22.421,34,768,0.00127,16600,
10.1126/science.272.5266.1340,0.00202,150,0.78,Ce1Fe3Co1Sb12,"melted, vacuum",polycrystalline,700,,107.51,4000000,7367,3185,756.81,22.259,34,496,0.00111,22500,
10.1126/science.272.5266.1341,0.00331,162,0.56,Ce1Fe2.5Co1.5Sb12,"melted, vacuum",polycrystalline,700,,107.6,3997000,7373,3204,756.81,22.259,34,302,0.000793,26200,
10.1126/science.272.5266.1342,0.00488,164,0.39,Ce1Fe2Co2Sb12,"melted, vacuum",polycrystalline,700,,107.69,3994000,7379,3223,747,21.971,34,205,0.000551,26900,
10.1126/science.272.5266.1343,0.00609,-141,0.23,Ce1Fe1Co3Sb12,"melted, vacuum",polycrystalline,700,,107.88,3988000,7391,3261,747,21.971,34,164,0.000326,19800,
10.1126/science.272.5266.1344,0.012,-36,0.00742,Ce1Fe1.5Co2.5Sb12,"melted, vacuum",polycrystalline,700,,107.78,3991000,7385,3242,747,21.971,34,83.8,1.06E-05,1260,
10.1126/science.272.5266.1345,0.00232,210,1.34,La1Fe3Co1Sb12,"melted, vacuum",polycrystalline,700,1.57,107.44,4003000,7366,3185,752.85,22.143,34,431,0.00191,44300,0.469
10.1126/science.272.5266.1346,0.00174,157,1.41,Ce1Fe4Sb12,"melted, vacuum",polycrystalline,1000,,107.33,4005000,7355,3146,762.3,22.421,34,574,0.00141,24600,
10.1126/science.272.5266.1347,0.0023,176,1.35,Ce1Fe3Co1Sb12,"melted, vacuum",polycrystalline,1000,,107.51,4000000,7367,3185,756.81,22.259,34,434,0.00135,31100,
10.1126/science.272.5266.1348,0.00339,190,1.06,Ce1Fe2.5Co1.5Sb12,"melted, vacuum",polycrystalline,1000,,107.6,3997000,7373,3204,756.81,22.259,34,295,0.00106,36100,
10.1126/science.272.5266.1349,0.00499,118,0.28,Ce1Fe2Co2Sb12,"melted, vacuum",polycrystalline,1000,,107.69,3994000,7379,3223,747,21.971,34,200,0.000278,13900,
10.1126/science.272.5266.1350,0.00448,-138,0.42,Ce1Fe1Co3Sb12,"melted, vacuum",polycrystalline,1000,,107.88,3988000,7391,3261,747,21.971,34,223,0.000425,19000,
10.1126/science.272.5266.1351,0.00397,-90,0.2,Ce1Fe1.5Co2.5Sb12,"melted, vacuum",polycrystalline,1000,,107.78,3991000,7385,3242,747,21.971,34,252,0.000203,8080,